# Mon Aug 25 13:51:03 2014
#
# Cooling Map File
#
# Loop values:
# hden -1
#
# Data Columns:
# log10 Te [K]
# log10 Emissivities / n_H^2 [erg s^-1 cm^3]
#
#Te   H__1_1216  H__1_6563  C__4_1548  C__4_1551  O__6_1032  O__6_1038  C__3_977  C__3_1907  C__3_1910  Si_2_1814  Si_3_1207  Si_3_1883  Si_4_1394  Si_4_1403  Mg_2_2796  Mg_2_2803
3.00  -23.3881  -24.3577  -303.6527  -303.6527  -303.6527  -303.6527  -32.0603  -303.6527  -303.6527  -303.6527  -31.3749  -303.6527  -303.6527  -303.6527  -44.2221  -44.4670
3.10  -23.4168  -24.3932  -303.6527  -303.6527  -303.6527  -303.6527  -31.8435  -303.6527  -303.6527  -303.6527  -31.2604  -303.6527  -303.6527  -303.6527  -39.6396  -39.8963
3.20  -23.4480  -24.4316  -52.5814  -52.8410  -303.6527  -303.6527  -31.6974  -303.6527  -303.6527  -303.6527  -31.1751  -303.6527  -303.6527  -303.6527  -36.0029  -36.2689
3.30  -23.4818  -24.4733  -47.3598  -47.6280  -303.6527  -303.6527  -31.6044  -303.6527  -303.6527  -303.6527  -31.1057  -303.6527  -48.1620  -48.3221  -33.1172  -33.3906
3.40  -23.5184  -24.5184  -43.2111  -43.4862  -303.6527  -303.6527  -31.5510  -36.4546  -36.6396  -303.6527  -31.0454  -303.6527  -43.5441  -43.7339  -30.8284  -31.1077
3.50  -23.5579  -24.5671  -39.9142  -40.1948  -303.6527  -303.6527  -31.5267  -33.7697  -33.9547  -303.6527  -30.9924  -35.9828  -39.8787  -40.0921  -29.0147  -29.2987
3.60  -23.6006  -24.6195  -37.2938  -37.5788  -303.6527  -303.6527  -31.5238  -31.6272  -31.8122  -30.7737  -30.9473  -33.4752  -36.9706  -37.2027  -27.5802  -27.8679
3.70  -23.6467  -24.6758  -35.2110  -35.4994  -303.6527  -303.6527  -31.5364  -29.9197  -30.1047  -29.0265  -30.9107  -31.2242  -34.6642  -34.9112  -26.4494  -26.7401
3.80  -23.6993  -24.7430  -33.5562  -33.8473  -303.6527  -303.6527  -31.5608  -28.5654  -28.7504  -27.6477  -30.8829  -29.3674  -32.8357  -33.0945  -25.5627  -25.8557
3.90  -23.7487  -24.8131  -32.2411  -32.5345  -303.6527  -303.6527  -31.5929  -27.4964  -27.6814  -26.5640  -29.8326  -27.8842  -31.3862  -31.6544  -24.8710  -25.1659
4.00  -23.6854  -24.8731  -31.1957  -31.4908  -303.6527  -303.6527  -28.7013  -26.6549  -26.8399  -25.7189  -28.1702  -26.7122  -30.2363  -30.5120  -24.3312  -24.6276
4.10  -23.1611  -24.7531  -30.3592  -30.6556  -303.6527  -303.6527  -27.3742  -25.9901  -26.1750  -25.0676  -26.8146  -25.7878  -29.2953  -29.5769  -23.9095  -24.2071
4.20  -22.4882  -24.2050  -29.6196  -29.9172  -303.6527  -303.6527  -26.3259  -25.4724  -25.6573  -24.5764  -25.6630  -24.9894  -28.2752  -28.5615  -23.6503  -23.9489
4.30  -22.2220  -23.8681  -28.7033  -29.0017  -303.6527  -303.6527  -25.5106  -25.0830  -25.2678  -24.3561  -24.5395  -24.1563  -26.8030  -27.0931  -23.8664  -24.1657
4.40  -22.3695  -23.9426  -27.8115  -28.1106  -303.6527  -303.6527  -24.7549  -24.6701  -24.8548  -24.5676  -23.8039  -23.6614  -25.6244  -25.9174  -24.4444  -24.7442
4.50  -22.5914  -24.1125  -27.1523  -27.4519  -303.6527  -303.6527  -23.7934  -23.9855  -24.1702  -24.6853  -23.3795  -23.4384  -24.6708  -24.9661  -25.0082  -25.3085
4.60  -22.8066  -24.2927  -26.4524  -26.7524  -303.6527  -303.6527  -22.9773  -23.3940  -23.5787  -24.6990  -23.0990  -23.3242  -23.9538  -24.2510  -25.4979  -25.7986
4.70  -23.0073  -24.4719  -25.2406  -25.5410  -303.6527  -303.6527  -22.4550  -23.0547  -23.2393  -24.8004  -22.9259  -23.2814  -23.4703  -23.7690  -25.9213  -26.2223
4.80  -23.1901  -24.6434  -24.0272  -24.3279  -29.6517  -29.9498  -22.1391  -22.8888  -23.0733  -25.0324  -22.8655  -23.3313  -23.0767  -23.3766  -26.2747  -26.5759
4.90  -23.3507  -24.8000  -23.0670  -23.3679  -28.6065  -28.9057  -21.9526  -22.8259  -23.0105  -25.5108  -23.0533  -23.6135  -22.9119  -23.2127  -26.5260  -26.8275
5.00  -23.4996  -24.9516  -22.4276  -22.7287  -27.8419  -28.1420  -21.9668  -22.9427  -23.1272  -26.5890  -23.8527  -24.4945  -23.2864  -23.5880  -26.6892  -26.9907
5.10  -23.6474  -25.1055  -22.3766  -22.6778  -26.5679  -26.8687  -22.4732  -23.5348  -23.7192  -27.8552  -24.8593  -25.5724  -23.8663  -24.1685  -26.8980  -27.1996
5.20  -23.7932  -25.2580  -22.8066  -23.1079  -24.7667  -25.0680  -23.3844  -24.5183  -24.7027  -28.9811  -25.7428  -26.5190  -24.3661  -24.6687  -27.2451  -27.5469
5.30  -23.9341  -25.4070  -23.2980  -23.5994  -23.3965  -23.6983  -24.2969  -25.4923  -25.6767  -29.9076  -26.4435  -27.2765  -24.7241  -25.0272  -27.7430  -28.0449
5.40  -24.0716  -25.5524  -23.7401  -24.0416  -22.5242  -22.8263  -25.1120  -26.3604  -26.5448  -30.6609  -26.9862  -27.8707  -24.9587  -25.2621  -28.4151  -28.7170
5.50  -24.2218  -25.6973  -24.1240  -24.4255  -22.3769  -22.6793  -25.8304  -27.1250  -27.3094  -31.3675  -27.4956  -28.4276  -25.1894  -25.4929  -29.2405  -29.5425
5.60  -24.3936  -25.8435  -24.4485  -24.7501  -22.7684  -23.0710  -26.4581  -27.7935  -27.9777  -32.1684  -28.1109  -29.0875  -25.5512  -25.8550  -30.2328  -30.5348
5.70  -24.5603  -25.9855  -24.6989  -25.0005  -23.2191  -23.5219  -26.9853  -28.3572  -28.5414  -33.1333  -28.9002  -29.9192  -26.1090  -26.4129  -31.4267  -31.7287
5.80  -24.7220  -26.1236  -24.8764  -25.1780  -23.6224  -23.9253  -27.4169  -28.8216  -29.0058  -34.2661  -29.8657  -30.9257  -26.8620  -27.1661  -303.6527  -303.6527
5.90  -24.8793  -26.2583  -25.0671  -25.3687  -23.9618  -24.2648  -27.8407  -29.2758  -29.4599  -35.5560  -30.9953  -32.0956  -27.7956  -28.0997  -303.6527  -303.6527
6.00  -25.0326  -26.3900  -25.3778  -25.6795  -24.2187  -24.5218  -28.3653  -29.8284  -30.0125  -37.0276  -32.3084  -33.4494  -28.9272  -29.2313  -303.6527  -303.6527
6.10  -25.1823  -26.5192  -25.8745  -26.1762  -24.3862  -24.6894  -29.0577  -30.5471  -30.7312  -38.7028  -33.8284  -35.0111  -30.2785  -30.5827  -303.6527  -303.6527
6.20  -25.3290  -26.6464  -26.5158  -26.8175  -24.5208  -24.8240  -29.8786  -31.3929  -31.5770  -303.6527  -35.6146  -36.8416  -31.9085  -32.2128  -303.6527  -303.6527
6.30  -25.4731  -26.7722  -27.2004  -27.5021  -24.7245  -25.0278  -30.7289  -32.2671  -32.4511  -303.6527  -37.7392  -303.6527  -33.9673  -34.2716  -303.6527  -303.6527
6.40  -25.6152  -26.8971  -27.8661  -28.1679  -25.0881  -25.3914  -31.5494  -33.1106  -33.2946  -303.6527  -41.0915  -303.6527  -36.2547  -36.5591  -303.6527  -303.6527
6.50  -25.7559  -27.0217  -28.4895  -28.7912  -25.6215  -25.9248  -32.3191  -33.9027  -34.0867  -303.6527  -303.6527  -303.6527  -303.6527  -303.6527  -303.6527  -303.6527
6.60  -25.8956  -27.1463  -29.0799  -29.3817  -26.2461  -26.5494  -33.0569  -34.6553  -34.8392  -303.6527  -303.6527  -303.6527  -303.6527  -303.6527  -303.6527  -303.6527
6.70  -26.0348  -27.2715  -29.6414  -29.9432  -26.8797  -27.1831  -33.7644  -35.3742  -35.5581  -303.6527  -303.6527  -303.6527  -303.6527  -303.6527  -303.6527  -303.6527
6.80  -26.1737  -27.3975  -30.1725  -30.4742  -27.4827  -27.7860  -34.4384  -36.0591  -36.2430  -303.6527  -303.6527  -303.6527  -303.6527  -303.6527  -303.6527  -303.6527
6.90  -26.3127  -27.5245  -30.6821  -30.9838  -28.0546  -28.3579  -35.0889  -36.7203  -36.9042  -303.6527  -303.6527  -303.6527  -303.6527  -303.6527  -303.6527  -303.6527
7.00  -26.4521  -27.6529  -31.1732  -31.4749  -28.5958  -28.8992  -35.7193  -37.3613  -37.5451  -303.6527  -303.6527  -303.6527  -303.6527  -303.6527  -303.6527  -303.6527
7.10  -26.5920  -27.7827  -31.6486  -31.9503  -29.1052  -29.4086  -36.3388  -37.9911  -38.1749  -303.6527  -303.6527  -303.6527  -303.6527  -303.6527  -303.6527  -303.6527
7.20  -26.7325  -27.9141  -32.1082  -32.4099  -29.5900  -29.8934  -36.9321  -38.5947  -38.7785  -303.6527  -303.6527  -303.6527  -303.6527  -303.6527  -303.6527  -303.6527
7.30  -26.8739  -28.0470  -32.5569  -32.8587  -30.0530  -30.3564  -40.3394  -303.6527  -303.6527  -303.6527  -303.6527  -303.6527  -303.6527  -303.6527  -303.6527  -303.6527
7.40  -27.0161  -28.1815  -32.9969  -33.2986  -30.4967  -30.8001  -38.7566  -303.6527  -303.6527  -303.6527  -303.6527  -303.6527  -303.6527  -303.6527  -303.6527  -303.6527
7.50  -27.1593  -28.3175  -33.4289  -33.7306  -30.9216  -31.2250  -41.4420  -303.6527  -303.6527  -303.6527  -303.6527  -303.6527  -303.6527  -303.6527  -303.6527  -303.6527
7.60  -27.3033  -28.4550  -33.8558  -34.1576  -31.3322  -31.6356  -41.9835  -303.6527  -303.6527  -303.6527  -303.6527  -303.6527  -303.6527  -303.6527  -303.6527  -303.6527
7.70  -27.4482  -28.5938  -34.2791  -34.5808  -31.7306  -32.0340  -42.5208  -303.6527  -303.6527  -303.6527  -303.6527  -303.6527  -303.6527  -303.6527  -303.6527  -303.6527
7.80  -27.5896  -28.7297  -34.6953  -34.9971  -32.1138  -32.4172  -43.0507  -303.6527  -303.6527  -303.6527  -303.6527  -303.6527  -303.6527  -303.6527  -303.6527  -303.6527
7.90  -27.7405  -28.8754  -35.1186  -35.4203  -32.4975  -32.8009  -43.5871  -303.6527  -303.6527  -303.6527  -303.6527  -303.6527  -303.6527  -303.6527  -303.6527  -303.6527
8.00  -27.8878  -29.0179  -35.5378  -35.8395  -32.8704  -33.1738  -44.1191  -303.6527  -303.6527  -303.6527  -303.6527  -303.6527  -303.6527  -303.6527  -303.6527  -303.6527
