# Mon Aug 25 13:17:48 2014
#
# Cooling Map File
#
# Loop values:
# hden -4.5
#
# Data Columns:
# log10 Te [K]
# log10 Emissivities / n_H^2 [erg s^-1 cm^3]
#
#Te   H__1_1216  H__1_6563  C__4_1548  C__4_1551  O__6_1032  O__6_1038  C__3_977  C__3_1907  C__3_1910  Si_2_1814  Si_3_1207  Si_3_1883  Si_4_1394  Si_4_1403  Mg_2_2796  Mg_2_2803
3.00  -22.7375  -23.7071  -26.4108  -26.7118  -296.6526  -296.6526  -26.2442  -296.6526  -296.6526  -296.6526  -27.3498  -296.6526  -296.6526  -296.6526  -46.0404  -46.2854
3.10  -22.8087  -23.7850  -26.4214  -26.7225  -296.6526  -296.6526  -26.0806  -296.6526  -296.6526  -296.6526  -27.3144  -296.6526  -296.6526  -296.6526  -41.6321  -41.8888
3.20  -22.8812  -23.8648  -26.4268  -26.7278  -296.6526  -296.6526  -25.9761  -296.6526  -296.6526  -296.6526  -27.3138  -296.6526  -296.6526  -296.6526  -38.1817  -38.4477
3.30  -22.9550  -23.9466  -26.4268  -26.7279  -296.6526  -296.6526  -25.9126  -296.6526  -296.6526  -296.6526  -27.3341  -296.6526  -44.3904  -44.5505  -35.4943  -35.7677
3.40  -23.0304  -24.0304  -26.4226  -26.7236  -46.3937  -46.5649  -25.8789  -34.6651  -34.8501  -296.6526  -27.3690  -296.6526  -39.8676  -40.0574  -33.4132  -33.6926
3.50  -23.1072  -24.1164  -26.4153  -26.7164  -41.3649  -41.5633  -25.8682  -32.0539  -32.2389  -296.6526  -27.4175  -33.2469  -36.3038  -36.5172  -31.8125  -32.0965
3.60  -23.1858  -24.2046  -26.4062  -26.7072  -37.3664  -37.5864  -25.8756  -29.9997  -30.1848  -296.6526  -27.4803  -31.2587  -33.5037  -33.7358  -30.5911  -30.8789
3.70  -23.2661  -24.2952  -26.3961  -26.6971  -34.1960  -34.4331  -25.8977  -28.3904  -28.5754  -31.8346  -27.5577  -29.7238  -31.3112  -31.5582  -29.6697  -29.9604
3.80  -23.3515  -24.3951  -26.3748  -26.6755  -31.6930  -31.9438  -25.9318  -27.1371  -27.3222  -30.6700  -27.6491  -28.5554  -29.6019  -29.8607  -28.9867  -29.2798
3.90  -23.4383  -24.4964  -26.1843  -26.4826  -29.7237  -29.9853  -25.9769  -26.1746  -26.3596  -29.7937  -27.7545  -27.6821  -28.2778  -28.5460  -28.4948  -28.7898
4.00  -23.5264  -24.5990  -25.5336  -25.8295  -28.1728  -28.4430  -26.0346  -25.4453  -25.6302  -29.1345  -27.8760  -27.0371  -27.2637  -27.5394  -28.1570  -28.4534
4.10  -23.6158  -24.7032  -24.7971  -25.0936  -26.9449  -27.2219  -26.1124  -24.8883  -25.0732  -28.6121  -27.4386  -26.5435  -26.5059  -26.7875  -27.9434  -28.2410
4.20  -23.7028  -24.8078  -24.2153  -24.5129  -25.9717  -26.2542  -25.2482  -24.4434  -24.6283  -28.1272  -26.7823  -26.1254  -25.9701  -26.2564  -27.8301  -28.1286
4.30  -23.7743  -24.9081  -23.7998  -24.0982  -25.2160  -25.5027  -24.4917  -24.0699  -24.2547  -27.6477  -26.1601  -25.7791  -25.6275  -25.9176  -27.8009  -28.1001
4.40  -23.8020  -24.9860  -23.5155  -23.8146  -24.6600  -24.9502  -23.8533  -23.7693  -23.9541  -27.2468  -25.6886  -25.5465  -25.4367  -25.7297  -27.8542  -28.1541
4.50  -23.7672  -25.0244  -23.3199  -23.6195  -24.2800  -24.5729  -23.3584  -23.5506  -23.7354  -27.0011  -25.3730  -25.4320  -25.3475  -25.6429  -28.0183  -28.3186
4.60  -23.6916  -25.0179  -23.1805  -23.4806  -24.0372  -24.3323  -22.9916  -23.4083  -23.5930  -26.9458  -25.1890  -25.4142  -25.3184  -25.6156  -28.3287  -28.6294
4.70  -23.6243  -24.9963  -23.0772  -23.3776  -23.8903  -24.1871  -22.7309  -23.3307  -23.5153  -27.0811  -25.1250  -25.4805  -25.3083  -25.6071  -28.7237  -29.0247
4.80  -23.6005  -24.9985  -22.9935  -23.2942  -23.7980  -24.0962  -22.5618  -23.3115  -23.4961  -27.3939  -25.1832  -25.6490  -25.2606  -25.5605  -29.0630  -29.3643
4.90  -23.6284  -25.0423  -22.9016  -23.2025  -23.7165  -24.0157  -22.4983  -23.3716  -23.5561  -27.8677  -25.3835  -25.9437  -25.1605  -25.4614  -29.1841  -29.4855
5.00  -23.6934  -25.1211  -22.8028  -23.1039  -23.5945  -23.8946  -22.6206  -23.5964  -23.7809  -28.4888  -25.7350  -26.3768  -25.1158  -25.4174  -29.0388  -29.3404
5.10  -23.7847  -25.2247  -22.8399  -23.1412  -23.4029  -23.7037  -23.0378  -24.0994  -24.2839  -29.2338  -26.2260  -26.9391  -25.2071  -25.5093  -28.7699  -29.0716
5.20  -23.8937  -25.3442  -23.1143  -23.4157  -23.1452  -23.4465  -23.7326  -24.8664  -25.0509  -30.0340  -26.7872  -27.5634  -25.3973  -25.6999  -28.5888  -28.8906
5.30  -24.0108  -25.4719  -23.5244  -23.8258  -22.8076  -23.1093  -24.5418  -25.7373  -25.9216  -30.7663  -27.2958  -28.1287  -25.5689  -25.8719  -28.6511  -28.9530
5.40  -24.1325  -25.6033  -23.9506  -24.2521  -22.4886  -22.7907  -25.3323  -26.5808  -26.7651  -31.3837  -27.7039  -28.5884  -25.6717  -25.9750  -29.0143  -29.3162
5.50  -24.2718  -25.7385  -24.3468  -24.6484  -22.5038  -22.8062  -26.0591  -27.3537  -27.5380  -31.9583  -28.0821  -29.0141  -25.7726  -26.0762  -29.6521  -29.9540
5.60  -24.4357  -25.8780  -24.6961  -24.9976  -22.8631  -23.1656  -26.7095  -28.0449  -28.2291  -32.6134  -28.5521  -29.5287  -25.9900  -26.2938  -30.5292  -30.8312
5.70  -24.5967  -26.0152  -24.9737  -25.2753  -23.2952  -23.5979  -27.2629  -28.6347  -28.8189  -33.4458  -29.2092  -30.2282  -26.4161  -26.7200  -31.6383  -31.9403
5.80  -24.7545  -26.1501  -25.1586  -25.4602  -23.6973  -24.0002  -27.7011  -29.1059  -29.2901  -34.4820  -30.0783  -31.1384  -27.0731  -27.3771  -296.6526  -296.6526
5.90  -24.9091  -26.2826  -25.3066  -25.6083  -24.0432  -24.3462  -28.0819  -29.5169  -29.7011  -35.7107  -31.1469  -32.2473  -27.9459  -28.2501  -296.6526  -296.6526
6.00  -25.0605  -26.4129  -25.5479  -25.8496  -24.3087  -24.6118  -28.5367  -29.9998  -30.1839  -37.1363  -32.4201  -33.5611  -29.0377  -29.3419  -296.6526  -296.6526
6.10  -25.2091  -26.5413  -25.9810  -26.2827  -24.4807  -24.7838  -29.1654  -30.6549  -30.8390  -296.6526  -33.9146  -296.6526  -30.3637  -30.6679  -296.6526  -296.6526
6.20  -25.3552  -26.6683  -26.5736  -26.8754  -24.6091  -24.9123  -29.9375  -31.4518  -31.6359  -296.6526  -35.6932  -296.6526  -31.9858  -32.2901  -296.6526  -296.6526
6.30  -25.4993  -26.7942  -27.2312  -27.5329  -24.7983  -25.1015  -30.7606  -32.2989  -32.4829  -296.6526  -38.9101  -296.6526  -34.0369  -34.3412  -296.6526  -296.6526
6.40  -25.6418  -26.9197  -27.8838  -28.1856  -25.1441  -25.4474  -31.5680  -33.1292  -33.3132  -296.6526  -41.1408  -296.6526  -36.3040  -36.6084  -296.6526  -296.6526
6.50  -25.7832  -27.0451  -28.5007  -28.8025  -25.6580  -25.9613  -32.3313  -33.9148  -34.0988  -296.6526  -296.6526  -296.6526  -296.6526  -296.6526  -296.6526  -296.6526
6.60  -25.9240  -27.1709  -29.0878  -29.3895  -26.2681  -26.5714  -33.0656  -34.6639  -34.8479  -296.6526  -296.6526  -296.6526  -296.6526  -296.6526  -296.6526  -296.6526
6.70  -26.0645  -27.2975  -29.6473  -29.9490  -26.8933  -27.1966  -33.7712  -296.6526  -296.6526  -296.6526  -296.6526  -296.6526  -296.6526  -296.6526  -296.6526  -296.6526
6.80  -26.2051  -27.4251  -30.1772  -30.4789  -27.4917  -27.7950  -34.4440  -296.6526  -296.6526  -296.6526  -296.6526  -296.6526  -296.6526  -296.6526  -296.6526  -296.6526
6.90  -26.3460  -27.5542  -30.6860  -30.9878  -28.0610  -28.3644  -35.0948  -296.6526  -296.6526  -296.6526  -296.6526  -296.6526  -296.6526  -296.6526  -296.6526  -296.6526
7.00  -26.4877  -27.6848  -31.1767  -31.4784  -28.6008  -28.9042  -35.7253  -296.6526  -296.6526  -296.6526  -296.6526  -296.6526  -296.6526  -296.6526  -296.6526  -296.6526
7.10  -26.6301  -27.8171  -31.6517  -31.9535  -29.1093  -29.4127  -36.3410  -296.6526  -296.6526  -296.6526  -296.6526  -296.6526  -296.6526  -296.6526  -296.6526  -296.6526
7.20  -26.7735  -27.9513  -32.1112  -32.4129  -29.5935  -29.8969  -36.8993  -296.6526  -296.6526  -296.6526  -296.6526  -296.6526  -296.6526  -296.6526  -296.6526  -296.6526
7.30  -26.9180  -28.0872  -32.5598  -32.8615  -30.0562  -30.3596  -40.3423  -296.6526  -296.6526  -296.6526  -296.6526  -296.6526  -296.6526  -296.6526  -296.6526  -296.6526
7.40  -27.0637  -28.2251  -32.9996  -33.3014  -30.4997  -30.8031  -40.8978  -296.6526  -296.6526  -296.6526  -296.6526  -296.6526  -296.6526  -296.6526  -296.6526  -296.6526
7.50  -27.2106  -28.3647  -33.4316  -33.7334  -30.9245  -31.2279  -41.4448  -296.6526  -296.6526  -296.6526  -296.6526  -296.6526  -296.6526  -296.6526  -296.6526  -296.6526
7.60  -27.3586  -28.5061  -33.8586  -34.1603  -31.3352  -31.6386  -41.9863  -296.6526  -296.6526  -296.6526  -296.6526  -296.6526  -296.6526  -296.6526  -296.6526  -296.6526
7.70  -27.5079  -28.6492  -34.2819  -34.5837  -31.7336  -32.0370  -42.5237  -296.6526  -296.6526  -296.6526  -296.6526  -296.6526  -296.6526  -296.6526  -296.6526  -296.6526
7.80  -27.6584  -28.7939  -34.7023  -35.0041  -32.1213  -32.4247  -43.0577  -296.6526  -296.6526  -296.6526  -296.6526  -296.6526  -296.6526  -296.6526  -296.6526  -296.6526
7.90  -27.8100  -28.9402  -35.1220  -35.4238  -32.5008  -32.8042  -43.5905  -296.6526  -296.6526  -296.6526  -296.6526  -296.6526  -296.6526  -296.6526  -296.6526  -296.6526
8.00  -27.9627  -29.0880  -35.5413  -35.8431  -32.8739  -33.1773  -44.1226  -296.6526  -296.6526  -296.6526  -296.6526  -296.6526  -296.6526  -296.6526  -296.6526  -296.6526
