# Mon Aug 25 14:14:02 2014
#
# Cooling Map File
#
# Loop values:
# hden 1.5
#
# Data Columns:
# log10 Te [K]
# log10 Emissivities / n_H^2 [erg s^-1 cm^3]
#
#Te   H__1_1216  H__1_6563  C__4_1548  C__4_1551  O__6_1032  O__6_1038  C__3_977  C__3_1907  C__3_1910  Si_2_1814  Si_3_1207  Si_3_1883  Si_4_1394  Si_4_1403  Mg_2_2796  Mg_2_2803
3.00  -25.6116  -26.5816  -308.6526  -308.6526  -308.6526  -308.6526  -308.6526  -308.6526  -308.6526  -308.6526  -35.2516  -308.6526  -308.6526  -308.6526  -45.7401  -45.9850
3.10  -25.6198  -26.5965  -308.6526  -308.6526  -308.6526  -308.6526  -308.6526  -308.6526  -308.6526  -308.6526  -35.1440  -308.6526  -308.6526  -308.6526  -41.0319  -41.2885
3.20  -25.6288  -26.6128  -308.6526  -308.6526  -308.6526  -308.6526  -308.6526  -308.6526  -308.6526  -308.6526  -35.0649  -308.6526  -308.6526  -308.6526  -37.2664  -37.5325
3.30  -25.6388  -26.6307  -308.6526  -308.6526  -308.6526  -308.6526  -308.6526  -308.6526  -308.6526  -308.6526  -35.0010  -308.6526  -52.0559  -52.2160  -34.2766  -34.5501
3.40  -25.6499  -26.6503  -308.6526  -308.6526  -308.6526  -308.6526  -308.6526  -39.6397  -39.8247  -308.6526  -34.9459  -308.6526  -47.4433  -47.6331  -31.9186  -32.1980
3.50  -25.6620  -26.6715  -308.6526  -308.6526  -308.6526  -308.6526  -308.6526  -36.9456  -37.1306  -34.0483  -34.8979  -39.0846  -43.7830  -43.9963  -30.0629  -30.3469
3.60  -25.6753  -26.6946  -308.6526  -308.6526  -308.6526  -308.6526  -308.6526  -34.8114  -34.9964  -31.8229  -34.8575  -36.1336  -40.8797  -41.1118  -28.6006  -28.8884
3.70  -25.6899  -26.7194  -308.6526  -308.6526  -308.6526  -308.6526  -308.6526  -33.1245  -33.3095  -30.0583  -34.8259  -33.7625  -38.5784  -38.8254  -27.4474  -27.7382
3.80  -25.7043  -26.7524  -308.6526  -308.6526  -308.6526  -308.6526  -308.6526  -31.8263  -32.0112  -28.6606  -34.3423  -31.8776  -36.7566  -37.0154  -26.5390  -26.8321
3.90  -25.5554  -26.7769  -308.6526  -308.6526  -308.6526  -308.6526  -33.6577  -30.7817  -30.9666  -27.5537  -32.3719  -30.3826  -35.3151  -35.5833  -25.8244  -26.1194
4.00  -24.6453  -26.5022  -308.6526  -308.6526  -308.6526  -308.6526  -31.9642  -29.9173  -30.1022  -26.6752  -30.6492  -29.1902  -34.1723  -34.4480  -25.2557  -25.5521
4.10  -23.4861  -25.3826  -308.6526  -308.6526  -308.6526  -308.6526  -30.4466  -29.0625  -29.2474  -25.8636  -29.0202  -27.9934  -33.1301  -33.4117  -24.6855  -24.9831
4.20  -22.2714  -24.0334  -308.6526  -308.6526  -308.6526  -308.6526  -28.8582  -28.0048  -28.1894  -24.7228  -26.4423  -25.7687  -31.3737  -31.6600  -23.8105  -24.1090
4.30  -22.1286  -23.7846  -308.6526  -308.6526  -308.6526  -308.6526  -26.9844  -26.5569  -26.7414  -24.3228  -24.6274  -24.2443  -28.8306  -29.1207  -23.8761  -24.1754
4.40  -22.3571  -23.9353  -30.4558  -30.7549  -308.6526  -308.6526  -25.1527  -25.0680  -25.2525  -24.5669  -23.8168  -23.6744  -26.4019  -26.6950  -24.4546  -24.7544
4.50  -22.5849  -24.1097  -29.1737  -29.4733  -308.6526  -308.6526  -23.8377  -24.0299  -24.2144  -24.6844  -23.3787  -23.4377  -24.7650  -25.0604  -25.0088  -25.3091
4.60  -22.8021  -24.2911  -26.9624  -27.2625  -308.6526  -308.6526  -22.9816  -23.3984  -23.5828  -24.6985  -23.0987  -23.3240  -23.9549  -24.2522  -25.4962  -25.7969
4.70  -23.0044  -24.4713  -25.2837  -25.5841  -308.6526  -308.6526  -22.4554  -23.0552  -23.2396  -24.7999  -22.9254  -23.2810  -23.4685  -23.7673  -25.9185  -26.2195
4.80  -23.1878  -24.6431  -24.0312  -24.3319  -308.6526  -308.6526  -22.1390  -22.8888  -23.0732  -25.0312  -22.8643  -23.3302  -23.0745  -23.3745  -26.2703  -26.5716
4.90  -23.3486  -24.7997  -23.0673  -23.3683  -308.6526  -308.6526  -21.9524  -22.8258  -23.0102  -25.5090  -23.0515  -23.6118  -22.9099  -23.2107  -26.5213  -26.8227
5.00  -23.4977  -24.9515  -22.4273  -22.7284  -29.1255  -29.4256  -21.9664  -22.9424  -23.1267  -26.5877  -23.8514  -24.4933  -23.2850  -23.5866  -26.6858  -26.9874
5.10  -23.6458  -25.1053  -22.3762  -22.6774  -26.6498  -26.9506  -22.4727  -23.5344  -23.7187  -27.8542  -24.8583  -25.5715  -23.8653  -24.1675  -26.8962  -27.1979
5.20  -23.7917  -25.2578  -22.8063  -23.1076  -24.7705  -25.0718  -23.3841  -24.5180  -24.7024  -28.9803  -25.7420  -26.5184  -24.3653  -24.6680  -27.2443  -27.5460
5.30  -23.9328  -25.4068  -23.2977  -23.5992  -23.3969  -23.6986  -24.2966  -25.4921  -25.6764  -29.9070  -26.4429  -27.2759  -24.7235  -25.0266  -27.7425  -28.0444
5.40  -24.0704  -25.5523  -23.7398  -24.0413  -22.5242  -22.8262  -25.1117  -26.3602  -26.5445  -30.6604  -26.9858  -27.8703  -24.9583  -25.2616  -28.4148  -28.7167
5.50  -24.2207  -25.6972  -24.1237  -24.4253  -22.3767  -22.6791  -25.8302  -27.1249  -27.3091  -31.3671  -27.4952  -28.4273  -25.1890  -25.4926  -29.2403  -29.5422
5.60  -24.3926  -25.8434  -24.4482  -24.7498  -22.7682  -23.0708  -26.4578  -27.7933  -27.9775  -32.1681  -28.1106  -29.0873  -25.5509  -25.8547  -30.2326  -30.5346
5.70  -24.5593  -25.9854  -24.6986  -25.0002  -23.2190  -23.5217  -26.9851  -28.3570  -28.5411  -33.1331  -28.9000  -29.9190  -26.1088  -26.4127  -31.4265  -31.7286
5.80  -24.7211  -26.1235  -24.8762  -25.1778  -23.6222  -23.9251  -27.4166  -28.8215  -29.0056  -34.2660  -29.8655  -30.9256  -26.8619  -27.1659  -308.6526  -308.6526
5.90  -24.8784  -26.2582  -25.0669  -25.3685  -23.9617  -24.2647  -27.8405  -29.2756  -29.4597  -35.5562  -30.9951  -32.0955  -27.7954  -28.0995  -308.6526  -308.6526
6.00  -25.0317  -26.3898  -25.3777  -25.6793  -24.2186  -24.5216  -28.3651  -29.8282  -30.0123  -37.0215  -32.3083  -33.4492  -28.9270  -29.2312  -308.6526  -308.6526
6.10  -25.1815  -26.5191  -25.8743  -26.1760  -24.3861  -24.6892  -29.0576  -30.5470  -30.7311  -38.8662  -33.8283  -35.0110  -30.2783  -30.5826  -308.6526  -308.6526
6.20  -25.3282  -26.6463  -26.5157  -26.8174  -24.5207  -24.8239  -29.8785  -31.3928  -31.5769  -308.6526  -35.6148  -36.8418  -31.9084  -32.2127  -308.6526  -308.6526
6.30  -25.4724  -26.7721  -27.2003  -27.5020  -24.7244  -25.0277  -30.7288  -32.2670  -32.4510  -308.6526  -38.8403  -308.6526  -33.9672  -34.2715  -308.6526  -308.6526
6.40  -25.6145  -26.8970  -27.8660  -28.1678  -25.0880  -25.3913  -31.5493  -33.1105  -33.2945  -308.6526  -41.0899  -308.6526  -36.2532  -36.5575  -308.6526  -308.6526
6.50  -25.7553  -27.0215  -28.4894  -28.7911  -25.6213  -25.9247  -32.3190  -33.9026  -34.0865  -308.6526  -308.6526  -308.6526  -308.6526  -308.6526  -308.6526  -308.6526
6.60  -25.8950  -27.1462  -29.0798  -29.3816  -26.2460  -26.5493  -33.0568  -34.6552  -34.8391  -308.6526  -308.6526  -308.6526  -308.6526  -308.6526  -308.6526  -308.6526
6.70  -26.0342  -27.2714  -29.6413  -29.9431  -26.8796  -27.1829  -33.7643  -35.3741  -35.5580  -308.6526  -308.6526  -308.6526  -308.6526  -308.6526  -308.6526  -308.6526
6.80  -26.1732  -27.3974  -30.1724  -30.4741  -27.4826  -27.7859  -34.4385  -36.0592  -36.2431  -308.6526  -308.6526  -308.6526  -308.6526  -308.6526  -308.6526  -308.6526
6.90  -26.3122  -27.5244  -30.6820  -30.9837  -28.0545  -28.3578  -35.0894  -36.7209  -36.9047  -308.6526  -308.6526  -308.6526  -308.6526  -308.6526  -308.6526  -308.6526
7.00  -26.4516  -27.6528  -31.1731  -31.4748  -28.5957  -28.8991  -35.7171  -37.3591  -37.5429  -308.6526  -308.6526  -308.6526  -308.6526  -308.6526  -308.6526  -308.6526
7.10  -26.5915  -27.7826  -31.6485  -31.9502  -29.1051  -29.4085  -36.3338  -37.9861  -38.1699  -308.6526  -308.6526  -308.6526  -308.6526  -308.6526  -308.6526  -308.6526
7.20  -26.7321  -27.9140  -32.1081  -32.4098  -29.5899  -29.8932  -36.9533  -38.6158  -38.7996  -308.6526  -308.6526  -308.6526  -308.6526  -308.6526  -308.6526  -308.6526
7.30  -26.8735  -28.0469  -32.5568  -32.8586  -30.0529  -30.3563  -40.3393  -308.6526  -308.6526  -308.6526  -308.6526  -308.6526  -308.6526  -308.6526  -308.6526  -308.6526
7.40  -27.0158  -28.1813  -32.9967  -33.2985  -30.4966  -30.8000  -40.8949  -308.6526  -308.6526  -308.6526  -308.6526  -308.6526  -308.6526  -308.6526  -308.6526  -308.6526
7.50  -27.1589  -28.3174  -33.4288  -33.7305  -30.9215  -31.2249  -41.4420  -308.6526  -308.6526  -308.6526  -308.6526  -308.6526  -308.6526  -308.6526  -308.6526  -308.6526
7.60  -27.3030  -28.4548  -33.8557  -34.1575  -31.3321  -31.6355  -41.9834  -308.6526  -308.6526  -308.6526  -308.6526  -308.6526  -308.6526  -308.6526  -308.6526  -308.6526
7.70  -27.4479  -28.5937  -34.2790  -34.5807  -31.7305  -32.0339  -42.5207  -308.6526  -308.6526  -308.6526  -308.6526  -308.6526  -308.6526  -308.6526  -308.6526  -308.6526
7.80  -27.5893  -28.7296  -34.6951  -34.9969  -32.1137  -32.4171  -43.0505  -308.6526  -308.6526  -308.6526  -308.6526  -308.6526  -308.6526  -308.6526  -308.6526  -308.6526
7.90  -27.7402  -28.8753  -35.1186  -35.4203  -32.4974  -32.8008  -43.5871  -308.6526  -308.6526  -308.6526  -308.6526  -308.6526  -308.6526  -308.6526  -308.6526  -308.6526
8.00  -27.8875  -29.0178  -35.5370  -35.8388  -32.8703  -33.1737  -44.1183  -308.6526  -308.6526  -308.6526  -308.6526  -308.6526  -308.6526  -308.6526  -308.6526  -308.6526
