# Mon Aug 25 13:22:43 2014
#
# Cooling Map File
#
# Loop values:
# hden -4
#
# Data Columns:
# log10 Te [K]
# log10 Emissivities / n_H^2 [erg s^-1 cm^3]
#
#Te   H__1_1216  H__1_6563  C__4_1548  C__4_1551  O__6_1032  O__6_1038  C__3_977  C__3_1907  C__3_1910  Si_2_1814  Si_3_1207  Si_3_1883  Si_4_1394  Si_4_1403  Mg_2_2796  Mg_2_2803
3.00  -22.7467  -23.7163  -27.0554  -27.3564  -297.6527  -297.6527  -26.6959  -297.6527  -297.6527  -297.6527  -27.3204  -297.6527  -297.6527  -297.6527  -45.1777  -45.4226
3.10  -22.8180  -23.7944  -27.0588  -27.3599  -297.6527  -297.6527  -26.5313  -297.6527  -297.6527  -297.6527  -27.2462  -297.6527  -297.6527  -297.6527  -40.7212  -40.9779
3.20  -22.8906  -23.8742  -27.0582  -27.3593  -297.6527  -297.6527  -26.4228  -297.6527  -297.6527  -297.6527  -27.2061  -297.6527  -297.6527  -297.6527  -37.2177  -37.4838
3.30  -22.9645  -23.9560  -27.0534  -27.3544  -297.6527  -297.6527  -26.3514  -297.6527  -297.6527  -297.6527  -27.1847  -297.6527  -44.2410  -44.4011  -34.4734  -34.7469
3.40  -23.0397  -24.0398  -27.0448  -27.3458  -47.4101  -47.5813  -26.3061  -34.5909  -34.7759  -297.6527  -27.1755  -297.6527  -39.6742  -39.8640  -32.3338  -32.6132
3.50  -23.1165  -24.1257  -27.0332  -27.3343  -42.3752  -42.5736  -26.2799  -31.9641  -32.1491  -297.6527  -27.1774  -32.5416  -36.0637  -36.2771  -30.6752  -30.9592
3.60  -23.1949  -24.2138  -27.0195  -27.3205  -38.3742  -38.5942  -26.2678  -29.8899  -30.0749  -297.6527  -27.1905  -30.4977  -33.2139  -33.4460  -29.3982  -29.6860
3.70  -23.2751  -24.3041  -27.0035  -27.3045  -35.2020  -35.4392  -26.2660  -28.2558  -28.4408  -30.4751  -27.2136  -28.9035  -30.9671  -31.2141  -28.4235  -28.7143
3.80  -23.3602  -24.4038  -26.9648  -27.2654  -32.6946  -32.9454  -26.2715  -26.9727  -27.1577  -29.2546  -27.2449  -27.6707  -29.1977  -29.4565  -27.6884  -27.9815
3.90  -23.4466  -24.5048  -26.6484  -26.9454  -30.7167  -30.9783  -26.2825  -25.9746  -26.1596  -28.3352  -27.2841  -26.7274  -27.8074  -28.0757  -27.1439  -27.4388
4.00  -23.5342  -24.6069  -25.8332  -26.1287  -29.1530  -29.4232  -26.3014  -25.2048  -25.3897  -27.6520  -27.3364  -26.0099  -26.7241  -26.9998  -26.7518  -27.0482
4.10  -23.6216  -24.7104  -25.0321  -25.3286  -27.9090  -28.1860  -26.3415  -24.6091  -24.7940  -27.1289  -26.4307  -25.4511  -25.9032  -26.1848  -26.4820  -26.7796
4.20  -23.6976  -24.8122  -24.4225  -24.7201  -26.9165  -27.1989  -24.9796  -24.1418  -24.3267  -26.6712  -25.6588  -24.9906  -25.3247  -25.6110  -26.3114  -26.6100
4.30  -23.7266  -24.8981  -24.0049  -24.3033  -26.1393  -26.4261  -24.1962  -23.7704  -23.9552  -26.2388  -25.0080  -24.6255  -24.9599  -25.2499  -26.2296  -26.5289
4.40  -23.6597  -24.9283  -23.7313  -24.0304  -25.5655  -25.8557  -23.5689  -23.4844  -23.6691  -25.8805  -24.5211  -24.3787  -24.7466  -25.0396  -26.2610  -26.5609
4.50  -23.5186  -24.8808  -23.5441  -23.8438  -25.1824  -25.4753  -23.0850  -23.2771  -23.4619  -25.6675  -24.1863  -24.2452  -24.6226  -24.9180  -26.4804  -26.7808
4.60  -23.3925  -24.8031  -23.4028  -23.7029  -24.9597  -25.2547  -22.7186  -23.1353  -23.3200  -25.6477  -23.9885  -24.2137  -24.5476  -24.8448  -26.9122  -27.2129
4.70  -23.3433  -24.7705  -23.2788  -23.5793  -24.8498  -25.1466  -22.4412  -23.0410  -23.2256  -25.8246  -23.9264  -24.2818  -24.4586  -24.7573  -27.4217  -27.7227
4.80  -23.3754  -24.8083  -23.1307  -23.4314  -24.7891  -25.0872  -22.2349  -22.9846  -23.1692  -26.1830  -24.0050  -24.4708  -24.2852  -24.5851  -27.8564  -28.1577
4.90  -23.4625  -24.8994  -22.8710  -23.1719  -24.6893  -24.9885  -22.1221  -22.9954  -23.1799  -26.7153  -24.2502  -24.8104  -24.1144  -24.4152  -28.0613  -28.3628
5.00  -23.5734  -25.0173  -22.5623  -22.8634  -24.4540  -24.7541  -22.2105  -23.1864  -23.3709  -27.4785  -24.7366  -25.3784  -24.1550  -24.4566  -27.9968  -28.2984
5.10  -23.6972  -25.1492  -22.5576  -22.8588  -24.1220  -24.4228  -22.6888  -23.7504  -23.9349  -28.4476  -25.4478  -26.1609  -24.4466  -24.7488  -27.8322  -28.1339
5.20  -23.8283  -25.2885  -22.9141  -23.2155  -23.7012  -24.0026  -23.5052  -24.6390  -24.8235  -29.4207  -26.1797  -26.9560  -24.7988  -25.1015  -27.8170  -28.1188
5.30  -23.9603  -25.4294  -23.3744  -23.6759  -23.0914  -23.3932  -24.3793  -25.5747  -25.7591  -30.2569  -26.7908  -27.6237  -25.0690  -25.3720  -28.0829  -28.3848
5.40  -24.0921  -25.5697  -23.8119  -24.1134  -22.4970  -22.7991  -25.1869  -26.4354  -26.6197  -30.9441  -27.2679  -28.1523  -25.2389  -25.5422  -28.6209  -28.9228
5.50  -24.2384  -25.7111  -24.2013  -24.5028  -22.4188  -22.7212  -25.9096  -27.2042  -27.3885  -31.5867  -27.7134  -28.6454  -25.4061  -25.7097  -29.3763  -29.6782
5.60  -24.4076  -25.8550  -24.5359  -24.8375  -22.7992  -23.1018  -26.5467  -27.8821  -28.0664  -32.3238  -28.2650  -29.2417  -25.7046  -26.0084  -30.3294  -30.6314
5.70  -24.5723  -25.9954  -24.7973  -25.0989  -23.2437  -23.5464  -27.0846  -28.4564  -28.6407  -33.2377  -29.0035  -30.0225  -26.2117  -26.5156  -31.4951  -31.7971
5.80  -24.7327  -26.1324  -24.9771  -25.2788  -23.6467  -23.9496  -27.5183  -28.9230  -29.1072  -34.3364  -29.9349  -30.9950  -26.9308  -27.2348  -297.6527  -297.6527
5.90  -24.8891  -26.2663  -25.1497  -25.4513  -23.9884  -24.2914  -27.9239  -29.3589  -29.5430  -35.6060  -31.0440  -32.1444  -27.8439  -28.1481  -297.6527  -297.6527
6.00  -25.0417  -26.3975  -25.4345  -25.7362  -24.2482  -24.5513  -28.4224  -29.8855  -30.0696  -37.0602  -32.3441  -33.4851  -28.9625  -29.2667  -297.6527  -297.6527
6.10  -25.1911  -26.5265  -25.9094  -26.2111  -24.4171  -24.7203  -29.0930  -30.5825  -30.7666  -38.7272  -33.8557  -35.0385  -30.3055  -30.6098  -297.6527  -297.6527
6.20  -25.3376  -26.6536  -26.5345  -26.8362  -24.5495  -24.8527  -29.8976  -31.4120  -31.5960  -297.6527  -35.6403  -297.6527  -31.9330  -32.2373  -297.6527  -297.6527
6.30  -25.4817  -26.7795  -27.2103  -27.5120  -24.7483  -25.0516  -30.7391  -32.2773  -32.4613  -297.6527  -37.8245  -297.6527  -33.9894  -34.2938  -297.6527  -297.6527
6.40  -25.6240  -26.9046  -27.8718  -28.1735  -25.1061  -25.4094  -31.5553  -33.1165  -33.3005  -297.6527  -41.1122  -297.6527  -36.2754  -36.5798  -297.6527  -297.6527
6.50  -25.7649  -27.0294  -28.4931  -28.7948  -25.6332  -25.9365  -32.3230  -33.9065  -34.0905  -297.6527  -297.6527  -297.6527  -297.6527  -297.6527  -297.6527  -297.6527
6.60  -25.9050  -27.1544  -29.0825  -29.3842  -26.2531  -26.5564  -33.0597  -34.6580  -34.8420  -297.6527  -297.6527  -297.6527  -297.6527  -297.6527  -297.6527  -297.6527
6.70  -26.0446  -27.2801  -29.6433  -29.9450  -26.8840  -27.1874  -33.7666  -35.3763  -35.5603  -297.6527  -297.6527  -297.6527  -297.6527  -297.6527  -297.6527  -297.6527
6.80  -26.1841  -27.4066  -30.1740  -30.4757  -27.4856  -27.7889  -34.4404  -297.6527  -297.6527  -297.6527  -297.6527  -297.6527  -297.6527  -297.6527  -297.6527  -297.6527
6.90  -26.3238  -27.5344  -30.6834  -30.9851  -28.0566  -28.3600  -35.0910  -297.6527  -297.6527  -297.6527  -297.6527  -297.6527  -297.6527  -297.6527  -297.6527  -297.6527
7.00  -26.4639  -27.6635  -31.1743  -31.4761  -28.5975  -28.9008  -35.7217  -297.6527  -297.6527  -297.6527  -297.6527  -297.6527  -297.6527  -297.6527  -297.6527  -297.6527
7.10  -26.6047  -27.7942  -31.6496  -31.9513  -29.1065  -29.4099  -36.3314  -297.6527  -297.6527  -297.6527  -297.6527  -297.6527  -297.6527  -297.6527  -297.6527  -297.6527
7.20  -26.7462  -27.9265  -32.1092  -32.4109  -29.5911  -29.8945  -39.7754  -297.6527  -297.6527  -297.6527  -297.6527  -297.6527  -297.6527  -297.6527  -297.6527  -297.6527
7.30  -26.8887  -28.0605  -32.5579  -32.8596  -30.0540  -30.3574  -37.5298  -297.6527  -297.6527  -297.6527  -297.6527  -297.6527  -297.6527  -297.6527  -297.6527  -297.6527
7.40  -27.0322  -28.1962  -32.9978  -33.2995  -30.4976  -30.8011  -38.0631  -297.6527  -297.6527  -297.6527  -297.6527  -297.6527  -297.6527  -297.6527  -297.6527  -297.6527
7.50  -27.1766  -28.3335  -33.4298  -33.7315  -30.9225  -31.2260  -41.4430  -297.6527  -297.6527  -297.6527  -297.6527  -297.6527  -297.6527  -297.6527  -297.6527  -297.6527
7.60  -27.3221  -28.4724  -33.8567  -34.1585  -31.3332  -31.6366  -41.9844  -297.6527  -297.6527  -297.6527  -297.6527  -297.6527  -297.6527  -297.6527  -297.6527  -297.6527
7.70  -27.4686  -28.6128  -34.2800  -34.5818  -31.7316  -32.0350  -42.5218  -297.6527  -297.6527  -297.6527  -297.6527  -297.6527  -297.6527  -297.6527  -297.6527  -297.6527
7.80  -27.6161  -28.7547  -34.7005  -35.0022  -32.1192  -32.4226  -43.0558  -297.6527  -297.6527  -297.6527  -297.6527  -297.6527  -297.6527  -297.6527  -297.6527  -297.6527
7.90  -27.7646  -28.8980  -35.1197  -35.4215  -32.4986  -32.8020  -43.5882  -297.6527  -297.6527  -297.6527  -297.6527  -297.6527  -297.6527  -297.6527  -297.6527  -297.6527
8.00  -27.9140  -29.0425  -35.5387  -35.8404  -32.8715  -33.1750  -44.1199  -297.6527  -297.6527  -297.6527  -297.6527  -297.6527  -297.6527  -297.6527  -297.6527  -297.6527
